File: 2-Dimension Graph/XRD.csv
2theta,intensity
5,325
5.06,355
5.12,385
5.18,317.5
5.24,265
5.3,325
5.36,330
5.42,322.5
5.48,320
5.54,390
5.6,307.5
5.66,302.5
5.72,372.5
5.78,252.5
5.84,295
5.9,282.5
5.96,290
6.02,300
6.08,317.5
6.14,295
6.2,262.5
6.26,297.5
6.32,305
6.38,260
6.44,222.5
6.5,262.5
6.56,285
6.62,252.5
6.68,292.5
6.74,302.5
6.8,250
6.86,237.5
6.92,297.5
6.98,250
7.04,290
7.1,232.5
7.16,255
7.22,225
7.28,275
7.34,202.5
7.4,295
7.46,237.5
7.52,237.5
7.58,262.5
7.64,270
7.7,255
7.76,247.5
7.82,270
7.88,247.5
7.94,212.5
8,227.5
8.06,225
8.12,245
8.18,205
8.24,257.5
8.3,227.5
8.36,260
8.42,235
8.48,210
8.54,230
8.6,227.5
8.66,227.5
8.72,267.5
8.78,265
8.84,205
8.9,235
8.96,230
9.02,210
9.08,195
9.14,222.5
9.2,232.5
9.26,192.5
9.32,207.5
9.38,157.5
9.44,197.5
9.5,247.5
9.56,190
9.62,195
9.68,227.5
9.74,175
9.8,245
9.86,215
9.92,182.5
9.98,190
10.04,185
10.1,207.5
10.16,217.5
10.22,200
10.28,167.5
10.34,187.5
10.4,220
10.46,170
10.52,230
10.58,195
10.64,260
10.7,197.5
10.76,192.5
10.82,197.5
10.88,157.5
10.94,177.5
11,160
11.06,155
11.12,185
11.18,135
11.24,170
11.3,157.5
11.36,187.5
11.42,162.5
11.48,170
11.54,147.5
11.6,150
11.66,177.5
11.72,192.5
11.78,142.5
11.84,182.5
11.9,165
11.96,190
12.02,140
12.08,150
12.14,160
12.2,150
12.26,167.5
12.32,172.5
12.38,182.5
12.44,205
12.5,147.5
12.56,147.5
12.62,170
12.68,190
12.74,160
12.8,180
12.86,177.5
12.92,175
12.98,165
13.04,150
13.1,160
13.16,167.5
13.22,120
13.28,157.5
13.34,142.5
13.4,170
13.46,160
13.52,182.5
13.58,140
13.64,130
13.7,137.5
13.76,117.5
13.82,160
13.88,172.5
13.94,147.5
14,180
14.06,130
14.12,152.5
14.18,165
14.24,117.5
14.3,175
14.36,117.5
14.42,107.5
14.48,182.5
14.54,165
14.6,175
14.66,100
14.72,117.5
14.78,147.5
14.84,167.5
14.9,180
14.96,165
15.02,145
15.08,137.5
15.14,157.5
15.2,145
15.26,122.5
15.32,162.5
15.38,122.5
15.44,157.5
15.5,150
15.56,172.5
15.62,110
15.68,130
15.74,170
15.8,145
15.86,175
15.92,147.5
15.98,152.5
16.04,172.5
16.1,127.5
16.16,167.5
16.22,147.5
16.28,190
16.34,120
16.4,155
16.46,147.5
16.52,172.5
16.58,160
16.64,162.5
16.7,165
16.76,135
16.82,165
16.88,107.5
16.94,132.5
17,175
17.06,157.5
17.12,162.5
17.18,160
17.24,137.5
17.3,140
17.36,147.5
17.42,152.5
17.48,190
17.54,157.5
17.6,155
17.66,152.5
17.72,177.5
17.78,187.5
17.84,222.5
17.9,165
17.96,205
18.02,172.5
18.08,202.5
18.14,207.5
18.2,280
18.26,365
18.32,570
18.38,912.5
18.44,1602.5
18.5,3670
18.56,7535
18.62,12077.5
18.68,13382.5
18.74,9410
18.8,3995
18.86,1485
18.92,757.5
18.98,617.5
19.04,495
19.1,352.5
19.16,402.5
19.22,327.5
19.28,262.5
19.34,317.5
19.4,262.5
19.46,242.5
19.52,235
19.58,165
19.64,200
19.7,197.5
19.76,167.5
19.82,217.5
19.88,180
19.94,175
20,177.5
20.06,212.5
20.12,147.5
20.18,127.5
20.24,187.5
20.3,160
20.36,172.5
20.42,157.5
20.48,137.5
20.54,155
20.6,142.5
20.66,177.5
20.72,172.5
20.78,142.5
20.84,125
20.9,147.5
20.96,147.5
21.02,150
21.08,172.5
21.14,187.5
21.2,142.5
21.26,267.5
21.32,262.5
21.38,210
21.44,202.5
21.5,165
21.56,102.5
21.62,165
21.68,175
21.74,122.5
21.8,110
21.86,160
21.92,130
21.98,120
22.04,127.5
22.1,120
22.16,125
22.22,132.5
22.28,127.5
22.34,145
22.4,147.5
22.46,132.5
22.52,112.5
22.58,110
22.64,105
22.7,127.5
22.76,135
22.82,112.5
22.88,77.5
22.94,137.5
23,102.5
23.06,137.5
23.12,125
23.18,95
23.24,140
23.3,132.5
23.36,117.5
23.42,125
23.48,170
23.54,152.5
23.6,152.5
23.66,127.5
23.72,122.5
23.78,100
23.84,112.5
23.9,135
23.96,105
24.02,140
24.08,120
24.14,150
24.2,125
24.26,102.5
24.32,92.5
24.38,122.5
24.44,100
24.5,115
24.56,112.5
24.62,127.5
24.68,127.5
24.74,140
24.8,130
24.86,150
24.92,132.5
24.98,90
25.04,120
25.1,102.5
25.16,92.5
25.22,85
25.28,135
25.34,115
25.4,105
25.46,117.5
25.52,120
25.58,80
25.64,115
25.7,97.5
25.76,105
25.82,102.5
25.88,110
25.94,90
26,125
26.06,137.5
26.12,130
26.18,147.5
26.24,115
26.3,147.5
26.36,97.5
26.42,132.5
26.48,102.5
26.54,100
26.6,97.5
26.66,77.5
26.72,85
26.78,107.5
26.84,102.5
26.9,87.5
26.96,60
27.02,105
27.08,67.5
27.14,82.5
27.2,100
27.26,85
27.32,107.5
27.38,90
27.44,95
27.5,87.5
27.56,92.5
27.62,110
27.68,77.5
27.74,85
27.8,87.5
27.86,85
27.92,85
27.98,87.5
28.04,102.5
28.1,95
28.16,70
28.22,90
28.28,97.5
28.34,45
28.4,92.5
28.46,97.5
28.52,77.5
28.58,62.5
28.64,60
28.7,52.5
28.76,67.5
28.82,70
28.88,110
28.94,72.5
29,55
29.06,77.5
29.12,85
29.18,85
29.24,95
29.3,95
29.36,87.5
29.42,95
29.48,92.5
29.54,110
29.6,105
29.66,92.5
29.72,95
29.78,97.5
29.84,97.5
29.9,85
29.96,77.5
30.02,105
30.08,97.5
30.14,110
30.2,107.5
30.26,147.5
30.32,145
30.38,172.5
30.44,130
30.5,167.5
30.56,117.5
30.62,82.5
30.68,90
30.74,85
30.8,90
30.86,77.5
30.92,90
30.98,77.5
31.04,57.5
31.1,62.5
31.16,90
31.22,70
31.28,112.5
31.34,80
31.4,80
31.46,110
31.52,70
31.58,82.5
31.64,107.5
31.7,77.5
31.76,130
31.82,150
31.88,187.5
31.94,137.5
32,152.5
32.06,125
32.12,142.5
32.18,137.5
32.24,112.5
32.3,162.5
32.36,117.5
32.42,112.5
32.48,97.5
32.54,80
32.6,67.5
32.66,77.5
32.72,77.5
32.78,77.5
32.84,70
32.9,52.5
32.96,70
33.02,72.5
33.08,115
33.14,102.5
33.2,65
33.26,95
33.32,72.5
33.38,82.5
33.44,60
33.5,85
33.56,70
33.62,67.5
33.68,82.5
33.74,92.5
33.8,92.5
33.86,95
33.92,77.5
33.98,97.5
34.04,157.5
34.1,157.5
34.16,137.5
34.22,82.5
34.28,122.5
34.34,72.5
34.4,77.5
34.46,80
34.52,60
34.58,87.5
34.64,87.5
34.7,80
34.76,77.5
34.82,102.5
34.88,82.5
34.94,92.5
35,102.5
35.06,105
35.12,77.5
35.18,115
35.24,95
35.3,127.5
35.36,110
35.42,80
35.48,107.5
35.54,137.5
35.6,112.5
35.66,130
35.72,142.5
35.78,165
35.84,145
35.9,195
35.96,175
36.02,217.5
36.08,202.5
36.14,222.5
36.2,247.5
36.26,315
36.32,377.5
36.38,620
36.44,1142.5
36.5,2452.5
36.56,3665
36.62,4352.5
36.68,3895
36.74,2445
36.8,1290
36.86,590
36.92,317.5
36.98,207.5
37.04,167.5
37.1,122.5
37.16,120
37.22,122.5
37.28,102.5
37.34,140
37.4,137.5
37.46,122.5
37.52,95
37.58,115
37.64,165
37.7,200
37.76,442.5
37.82,550
37.88,577.5
37.94,587.5
38,482.5
38.06,450
38.12,667.5
38.18,1015
38.24,1427.5
38.3,1450
38.36,1190
38.42,607.5
38.48,347.5
38.54,195
38.6,100
38.66,122.5
38.72,105
38.78,80
38.84,92.5
38.9,112.5
38.96,80
39.02,110
39.08,82.5
39.14,87.5
39.2,62.5
39.26,70
39.32,62.5
39.38,95
39.44,60
39.5,77.5
39.56,95
39.62,115
39.68,92.5
39.74,105
39.8,105
39.86,100
39.92,102.5
39.98,127.5
40.04,85
40.1,90
40.16,60
40.22,102.5
40.28,75
40.34,90
40.4,95
40.46,75
40.52,122.5
40.58,90
40.64,75
40.7,90
40.76,75
40.82,90
40.88,90
40.94,85
41,85
41.06,77.5
41.12,62.5
41.18,60
41.24,72.5
41.3,92.5
41.36,80
41.42,67.5
41.48,100
41.54,77.5
41.6,80
41.66,100
41.72,110
41.78,72.5
41.84,105
41.9,85
41.96,95
42.02,95
42.08,95
42.14,77.5
42.2,65
42.26,60
42.32,85
42.38,77.5
42.44,87.5
42.5,132.5
42.56,127.5
42.62,105
42.68,122.5
42.74,97.5
42.8,92.5
42.86,137.5
42.92,110
42.98,135
43.04,170
43.1,150
43.16,142.5
43.22,112.5
43.28,135
43.34,122.5
43.4,150
43.46,142.5
43.52,187.5
43.58,182.5
43.64,185
43.7,222.5
43.76,240
43.82,287.5
43.88,330
43.94,332.5
44,487.5
44.06,735
44.12,1380
44.18,2387.5
44.24,4387.5
44.3,6630
44.36,7987.5
44.42,7822.5
44.48,5677.5
44.54,3915
44.6,1947.5
44.66,952.5
44.72,590
44.78,352.5
44.84,247.5
44.9,225
44.96,187.5
45.02,142.5
45.08,157.5
45.14,107.5
45.2,140
45.26,105
45.32,117.5
45.38,105
45.44,90
45.5,105
45.56,85
45.62,57.5
45.68,92.5
45.74,67.5
45.8,75
45.86,67.5
45.92,80
45.98,90
46.04,82.5
46.1,85
46.16,62.5
46.22,62.5
46.28,65
46.34,92.5
46.4,67.5
46.46,72.5
46.52,82.5
46.58,67.5
46.64,52.5
46.7,72.5
46.76,70
46.82,65
46.88,82.5
46.94,82.5
47,52.5
47.06,42.5
47.12,72.5
47.18,50
47.24,65
47.3,75
47.36,72.5
47.42,70
47.48,85
47.54,72.5
47.6,72.5
47.66,60
47.72,107.5
47.78,62.5
47.84,77.5
47.9,67.5
47.96,82.5
48.02,85
48.08,122.5
48.14,92.5
48.2,127.5
48.26,175
48.32,265
48.38,430
48.44,887.5
48.5,1075
48.56,1080
48.62,947.5
48.68,682.5
48.74,435
48.8,270
48.86,165
48.92,130
48.98,102.5
49.04,115
49.1,85
49.16,67.5
49.22,92.5
49.28,60
49.34,112.5
49.4,67.5
49.46,42.5
49.52,47.5
49.58,70
49.64,57.5
49.7,57.5
49.76,50
49.82,42.5
49.88,50
49.94,95
50,57.5
50.06,45
50.12,55
50.18,70
50.24,50
50.3,55
50.36,60
50.42,62.5
50.48,35
50.54,45
50.6,57.5
50.66,60
50.72,47.5
50.78,50
50.84,55
50.9,40
50.96,60
51.02,50
51.08,52.5
51.14,45
51.2,75
51.26,45
51.32,62.5
51.38,40
51.44,50
51.5,57.5
51.56,77.5
51.62,65
51.68,42.5
51.74,80
51.8,62.5
51.86,67.5
51.92,57.5
51.98,60
52.04,70
52.1,27.5
52.16,55
52.22,57.5
52.28,60
52.34,65
52.4,60
52.46,52.5
52.52,55
52.58,55
52.64,52.5
52.7,52.5
52.76,42.5
52.82,42.5
52.88,32.5
52.94,30
53,47.5
53.06,52.5
53.12,32.5
53.18,42.5
53.24,60
53.3,50
53.36,52.5
53.42,50
53.48,50
53.54,80
53.6,52.5
53.66,42.5
53.72,42.5
53.78,70
53.84,47.5
53.9,60
53.96,55
54.02,40
54.08,62.5
54.14,47.5
54.2,60
54.26,65
54.32,75
54.38,55
54.44,62.5
54.5,52.5
54.56,42.5
54.62,40
54.68,57.5
54.74,42.5
54.8,35
54.86,45
54.92,35
54.98,60
55.04,50
55.1,72.5
55.16,67.5
55.22,62.5
55.28,52.5
55.34,57.5
55.4,62.5
55.46,65
55.52,52.5
55.58,50
55.64,35
55.7,55
55.76,50
55.82,57.5
55.88,42.5
55.94,40
56,52.5
56.06,25
56.12,42.5
56.18,75
56.24,52.5
56.3,57.5
56.36,37.5
56.42,62.5
56.48,57.5
56.54,60
56.6,47.5
56.66,52.5
56.72,57.5
56.78,62.5
56.84,55
56.9,67.5
56.96,55
57.02,52.5
57.08,50
57.14,50
57.2,72.5
57.26,45
57.32,60
57.38,77.5
57.44,57.5
57.5,47.5
57.56,75
57.62,82.5
57.68,72.5
57.74,90
57.8,77.5
57.86,62.5
57.92,82.5
57.98,82.5
58.04,107.5
58.1,170
58.16,280
58.22,290
58.28,352.5
58.34,422.5
58.4,672.5
58.46,1057.5
58.52,1070
58.58,1140
58.64,1065
58.7,817.5
58.76,522.5
58.82,415
58.88,202.5
58.94,170
59,120
59.06,87.5
59.12,80
59.18,102.5
59.24,75
59.3,57.5
59.36,85
59.42,55
59.48,55
59.54,50
59.6,70
59.66,57.5
59.72,57.5
59.78,80
59.84,75
59.9,50
59.96,90
60.02,90
60.08,57.5
60.14,47.5
60.2,52.5
60.26,42.5
60.32,50
60.38,52.5
60.44,45
60.5,62.5
60.56,72.5
60.62,60
60.68,70
60.74,82.5
60.8,72.5
60.86,40
60.92,57.5
60.98,75
61.04,77.5
61.1,50
61.16,50
61.22,45
61.28,67.5
61.34,90
61.4,67.5
61.46,65
61.52,70
61.58,55
61.64,70
61.7,75
61.76,40
61.82,77.5
61.88,57.5
61.94,57.5
62,65
62.06,72.5
62.12,72.5
62.18,65
62.24,65
62.3,77.5
62.36,60
62.42,62.5
62.48,55
62.54,102.5
62.6,90
62.66,87.5
62.72,80
62.78,90
62.84,50
62.9,87.5
62.96,87.5
63.02,87.5
63.08,100
63.14,85
63.2,117.5
63.26,107.5
63.32,100
63.38,90
63.44,72.5
63.5,122.5
63.56,117.5
63.62,97.5
63.68,95
63.74,155
63.8,127.5
63.86,147.5
63.92,212.5
63.98,342.5
64.04,402.5
64.1,720
64.16,1137.5
64.22,1592.5
64.28,1612.5
64.34,1595
64.4,1310
64.46,1185
64.52,945
64.58,767.5
64.64,917.5
64.7,1182.5
64.76,1432.5
64.82,1647.5
64.88,1620
64.94,1477.5
65,1300
65.06,1047.5
65.12,790
65.18,502.5
65.24,342.5
65.3,240
65.36,200
65.42,107.5
65.48,102.5
65.54,90
65.6,82.5
65.66,85
65.72,77.5
65.78,122.5
65.84,77.5
65.9,72.5
65.96,62.5
66.02,67.5
66.08,80
66.14,62.5
66.2,55
66.26,67.5
66.32,70
66.38,50
66.44,67.5
66.5,50
66.56,67.5
66.62,60
66.68,75
66.74,57.5
66.8,77.5
66.86,57.5
66.92,55
66.98,60
67.04,45
67.1,60
67.16,55
67.22,52.5
67.28,50
67.34,62.5
67.4,72.5
67.46,72.5
67.52,75
67.58,92.5
67.64,105
67.7,120
67.76,132.5
67.82,207.5
67.88,227.5
67.94,447.5
68,670
68.06,830
68.12,947.5
68.18,920
68.24,745
68.3,715
68.36,592.5
68.42,360
68.48,225
68.54,117.5
68.6,100
68.66,75
68.72,52.5
68.78,65
68.84,57.5
68.9,40
68.96,40
69.02,32.5
69.08,37.5
69.14,72.5
69.2,47.5
69.26,45
69.32,57.5
69.38,47.5
69.44,47.5
69.5,50
69.56,40
69.62,30
69.68,45
69.74,47.5
69.8,27.5
69.86,40
69.92,32.5
69.98,37.5
70.04,52.5
70.1,12.5
70.16,45
70.22,55
70.28,60
70.34,35
70.4,27.5
70.46,27.5
70.52,27.5
70.58,42.5
70.64,32.5
70.7,22.5
70.76,35
70.82,27.5
70.88,35
70.94,30
71,32.5
71.06,27.5
71.12,37.5
71.18,50
71.24,45
71.3,27.5
71.36,20
71.42,40
71.48,60
71.54,40
71.6,45
71.66,45
71.72,27.5
71.78,37.5
71.84,42.5
71.9,27.5
71.96,37.5
72.02,37.5
72.08,52.5
72.14,47.5
72.2,15
72.26,60
72.32,42.5
72.38,35
72.44,22.5
72.5,25
72.56,30
72.62,32.5
72.68,40
72.74,37.5
72.8,47.5
72.86,50
72.92,25
72.98,25
73.04,30
73.1,30
73.16,30
73.22,37.5
73.28,50
73.34,32.5
73.4,32.5
73.46,35
73.52,30
73.58,30
73.64,35
73.7,55
73.76,45
73.82,37.5
73.88,27.5
73.94,42.5
74,35
74.06,30
74.12,35
74.18,40
74.24,52.5
74.3,37.5
74.36,57.5
74.42,50
74.48,40
74.54,45
74.6,45
74.66,40
74.72,42.5
74.78,37.5
74.84,20
74.9,35
74.96,50
75.02,35
75.08,27.5
75.14,50
75.2,42.5
75.26,27.5
75.32,27.5
75.38,25
75.44,20
75.5,45
75.56,35
75.62,67.5
75.68,47.5
75.74,65
75.8,42.5
75.86,45
75.92,50
75.98,30
76.04,60
76.1,37.5
76.16,37.5
76.22,55
76.28,35
76.34,50
76.4,75
76.46,77.5
76.52,57.5
76.58,127.5
76.64,137.5
76.7,187.5
76.76,287.5
76.82,267.5
76.88,340
76.94,372.5
77,355
77.06,330
77.12,317.5
77.18,237.5
77.24,255
77.3,197.5
77.36,200
77.42,235
77.48,240
77.54,335
77.6,317.5
77.66,305
77.72,297.5
77.78,350
77.84,352.5
77.9,265
77.96,225
78.02,200
78.08,145
78.14,197.5
78.2,187.5
78.26,160
78.32,115
78.38,105
78.44,107.5
78.5,105
78.56,50
78.62,80
78.68,55
78.74,57.5
78.8,40
78.86,47.5
78.92,50
78.98,62.5
79.04,35
79.1,50
79.16,50
79.22,40
79.28,32.5
79.34,40
79.4,37.5
79.46,30
79.52,37.5
79.58,45
79.64,50
79.7,42.5
79.76,47.5
79.82,32.5
79.88,55
79.94,42.5
80,42.5
80.06,37.5
80.12,42.5
80.18,35
80.24,45
80.3,40
80.36,47.5
80.42,52.5
80.48,32.5
80.54,50
80.6,42.5
80.66,67.5
80.72,75
80.78,140
80.84,195
80.9,205
80.96,190
81.02,175
81.08,162.5
81.14,170
81.2,152.5
81.26,112.5
81.32,92.5
81.38,97.5
81.44,85
81.5,102.5
81.56,97.5
81.62,112.5
81.68,150
81.74,207.5
81.8,362.5
81.86,430
81.92,525
81.98,570
82.04,467.5
82.1,442.5
82.16,387.5
82.22,342.5
82.28,260
82.34,175
82.4,92.5
82.46,107.5
82.52,77.5
82.58,65
82.64,45
82.7,55
82.76,47.5
82.82,40
82.88,37.5
82.94,37.5
83,55
83.06,37.5
83.12,47.5
83.18,42.5
83.24,52.5
83.3,62.5
83.36,45
83.42,47.5
83.48,37.5
83.54,55
83.6,45
83.66,45
83.72,62.5
83.78,55
83.84,55
83.9,77.5
83.96,92.5
84.02,137.5
84.08,197.5
84.14,230
84.2,252.5
84.26,247.5
84.32,280
84.38,210
84.44,167.5
84.5,185
84.56,147.5
84.62,90
84.68,122.5
84.74,122.5
84.8,80
84.86,122.5
84.92,140
84.98,127.5
85.04,112.5
85.1,105
85.16,115
85.22,117.5
85.28,90
85.34,72.5
85.4,72.5
85.46,70
85.52,47.5
85.58,52.5
85.64,40
85.7,30
85.76,60
85.82,40
85.88,40
85.94,55
86,35
86.06,45
86.12,30
86.18,30
86.24,30
86.3,30
86.36,42.5
86.42,27.5
86.48,35
86.54,25
86.6,42.5
86.66,25
86.72,35
86.78,22.5
86.84,30
86.9,25
86.96,57.5
87.02,27.5
87.08,25
87.14,22.5
87.2,50
87.26,30
87.32,37.5
87.38,35
87.44,35
87.5,27.5
87.56,50
87.62,37.5
87.68,30
87.74,47.5
87.8,35
87.86,32.5
87.92,37.5
87.98,27.5
88.04,30
88.1,37.5
88.16,22.5
88.22,42.5
88.28,47.5
88.34,20
88.4,35
88.46,17.5
88.52,37.5
88.58,37.5
88.64,30
88.7,25
88.76,25
88.82,22.5
88.88,37.5
88.94,35
89,27.5
89.06,20
89.12,40
89.18,30
89.24,32.5
89.3,22.5
89.36,25
89.42,25
89.48,42.5
89.54,40
89.6,32.5
89.66,22.5
89.72,42.5
89.78,45
89.84,37.5
89.9,32.5
89.96,22.5
90,47.5